{
  "resourceType": "Bundle",
  "id": "father",
  "implicitRules": "2.16.840.1.113883.1.3",
  "language": "it-IT",
  "identifier": {
    "system": "urn:oid:2.16.840.1.113883.2.9.2.120.4.4",
    "value": "030702.TSTSMN63A01F205H.20220325112426.OQlvTq1J"
  },
  "type": "transaction",
  "entry": [ {
    "fullUrl": "https://example.com/base/Practitioner/2.16.840.1.113883.2.9.4.3.2-RSSRBR67H99H467D",
    "resource": {
      "resourceType": "Practitioner",
      "id": "2.16.840.1.113883.2.9.4.3.2-RSSRBR67H99H467D",
      "identifier": [ {
        "system": "urn:oid:2.16.840.1.113883.2.9.4.3.2",
        "value": "RSSRBR67H99H467D",
        "assigner": {
          "display": "MEF"
        }
      } ],
      "name": [ {
        "family": "Rossi",
        "given": [ "Roberta" ]
      }, {
        "text": "###PRIOR###AUTHENTICATOR_ASSIGNEDENTITY_ASSIGNEDPERSON###PRIOR###"
      } ],
      "telecom": [ {
        "system": "email",
        "value": "rossi.roberta@gmail.com",
        "use": "home"
      }, {
        "system": "phone",
        "value": "3229982768",
        "use": "home"
      } ],
      "address": [ {
        "line": [ "Via Corvetto 5" ],
        "city": "Roma",
        "district": "RM",
        "state": "120",
        "postalCode": "00164",
        "country": "100"
      } ]
    },
    "request": {
      "method": "PUT",
      "url": "Practitioner?identifier=urn:oid:2.16.840.1.113883.2.9.4.3.2|RSSRBR67H99H467D"
    }
  }, {
    "fullUrl": "https://example.com/base/Practitioner/2.16.840.1.113883.2.9.4.3.2-BNCFNC68R09F839P",
    "resource": {
      "resourceType": "Practitioner",
      "id": "2.16.840.1.113883.2.9.4.3.2-BNCFNC68R09F839P",
      "identifier": [ {
        "system": "urn:oid:2.16.840.1.113883.2.9.4.3.2",
        "value": "BNCFNC68R09F839P",
        "assigner": {
          "display": "MEF"
        }
      } ],
      "name": [ {
        "family": "Bianchi",
        "given": [ "Francesco" ],
        "prefix": [ "Specialista" ]
      }, {
        "text": "###PRIOR###ASSIGNEDAUTHOR_ASSIGNEDPERSON###PRIOR###"
      } ],
      "telecom": [ {
        "system": "email",
        "value": "francesco.bianchi@gmail.com",
        "use": "work"
      }, {
        "system": "phone",
        "value": "+393441834678",
        "use": "work"
      } ],
      "address": [ {
        "line": [ "Via Milano 7" ],
        "city": "Roma",
        "district": "RM",
        "state": "120",
        "postalCode": "00184",
        "country": "100"
      } ]
    },
    "request": {
      "method": "PUT",
      "url": "Practitioner?identifier=urn:oid:2.16.840.1.113883.2.9.4.3.2|BNCFNC68R09F839P"
    }
  }, {
    "fullUrl": "https://example.com/base/DiagnosticReport/diagnostic-report",
    "resource": {
      "resourceType": "DiagnosticReport",
      "id": "diagnostic-report",
      "text": {
        "status": "generated",
        "div": "<div xmlns=\"http://www.w3.org/1999/xhtml\"><div class=\"hapiHeaderText\"> xxxx </div><table class=\"hapiPropertyTable\"><tbody><tr><td>Status</td><td>FINAL</td></tr></tbody></table><table class=\"hapiTableOfValues\"><thead><tr><td>Name</td><td>Value</td><td>Interpretation</td><td>Reference Range</td><td>Status</td></tr></thead><tbody><tr class=\"hapiTableOfValuesRowOdd\"><td> ? </td><td/><td/><td/><td>FINAL</td></tr><tr class=\"hapiTableOfValuesRowEven\"><td> ? </td><td/><td/><td/><td>FINAL</td></tr></tbody></table></div>"
      },
      "status": "final",
      "code": {
        "coding": [ {
          "system": "urn:oid:2.16.840.1.113883.6.1",
          "code": "xxx",
          "display": "xxxx"
        } ]
      },
      "subject": {
        "reference": "Patient/2.16.840.1.113883.2.9.4.3.2-RSSMRA81T20H501L"
      },
      "encounter": {
        "reference": "Encounter/encounter"
      },
      "effectiveDateTime": "2022-03-22T22:12:21+01:00",
      "result": [ {
        "reference": "Observation/observation-entry1"
      }, {
        "reference": "Observation/observation-entry2"
      } ]
    },
    "request": {
      "method": "POST",
      "url": "DiagnosticReport"
    }
  }, {
    "fullUrl": "https://example.com/base/PractitionerRole/practitioner-role-performer",
    "resource": {
      "resourceType": "PractitionerRole",
      "id": "practitioner-role-performer",
      "identifier": [ {
        "system": "urn:2.16.840.1.113883.2.9.4.3.2-2.16.840.1.113883.2.9.4.1.3",
        "value": "MURRSI88Y67R012G327700102"
      } ],
      "practitioner": {
        "reference": "Practitioner/2.16.840.1.113883.2.9.4.3.2-MURRSI88Y67R012G"
      },
      "organization": {
        "reference": "Organization/2.16.840.1.113883.2.9.4.1.3-327700102"
      }
    },
    "request": {
      "method": "PUT",
      "url": "PractitionerRole?identifier=urn:2.16.840.1.113883.2.9.4.3.2-2.16.840.1.113883.2.9.4.1.3|MURRSI88Y67R012G327700102"
    }
  }, {
    "fullUrl": "https://example.com/base/Observation/has-member-observation2-2",
    "resource": {
      "resourceType": "Observation",
      "id": "has-member-observation2-2",
      "status": "final",
      "code": {
        "coding": [ {
          "system": "urn:oid:2.16.840.1.113883.6.1",
          "version": "LOINC",
          "code": "xxx",
          "display": "xxx"
        } ]
      },
      "subject": {
        "reference": "Patient/2.16.840.1.113883.2.9.4.3.2-RSSMRA81T20H501L"
      },
      "effectiveDateTime": "2022-03-22T22:12:21+01:00",
      "interpretation": [ {
        "coding": [ {
          "system": "urn:oid:1.1.1.1.1.1.1.1",
          "version": "sistema di  codifica",
          "code": "xxx",
          "display": "xxx"
        } ]
      } ],
      "specimen": {
        "reference": "Specimen/specimen-entry-organizer2"
      }
    },
    "request": {
      "method": "POST",
      "url": "Observation"
    }
  }, {
    "fullUrl": "https://example.com/base/Observation/has-member-observation1-2",
    "resource": {
      "resourceType": "Observation",
      "id": "has-member-observation1-2",
      "status": "final",
      "code": {
        "coding": [ {
          "system": "urn:oid:2.16.840.1.113883.6.1",
          "version": "LOINC",
          "code": "xxx",
          "display": "xxx"
        } ]
      },
      "subject": {
        "reference": "Patient/2.16.840.1.113883.2.9.4.3.2-RSSMRA81T20H501L"
      },
      "effectiveDateTime": "2022-03-22T22:12:21+01:00",
      "interpretation": [ {
        "coding": [ {
          "system": "urn:oid:2.16.840.1.113883.5.83",
          "version": "sistema di  codifica",
          "code": "xxx",
          "display": "xxx"
        } ]
      } ],
      "specimen": {
        "reference": "Specimen/specimen-entry-organizer2"
      }
    },
    "request": {
      "method": "POST",
      "url": "Observation"
    }
  }, {
    "fullUrl": "https://example.com/base/Observation/has-member-observation2-1",
    "resource": {
      "resourceType": "Observation",
      "id": "has-member-observation2-1",
      "status": "final",
      "code": {
        "coding": [ {
          "system": "urn:oid:2.16.840.1.113883.6.1",
          "version": "LOINC",
          "code": "xxx",
          "display": "xxx"
        } ]
      },
      "subject": {
        "reference": "Patient/2.16.840.1.113883.2.9.4.3.2-RSSMRA81T20H501L"
      },
      "effectiveDateTime": "2022-03-22T22:12:21+01:00",
      "interpretation": [ {
        "coding": [ {
          "system": "urn:oid:1.1.1.1.1.1.1.1",
          "version": "sistema di codifica",
          "code": "xxx",
          "display": "xxx"
        } ]
      } ],
      "specimen": {
        "reference": "Specimen/specimen-entry-organizer1"
      },
      "derivedFrom": [ {
        "reference": "Media/organizer-observation-media2-1"
      } ]
    },
    "request": {
      "method": "POST",
      "url": "Observation"
    }
  }, {
    "fullUrl": "https://example.com/base/Practitioner/2.16.840.1.113883.2.9.4.3.2-SVATPR85Y37T079B",
    "resource": {
      "resourceType": "Practitioner",
      "id": "2.16.840.1.113883.2.9.4.3.2-SVATPR85Y37T079B",
      "identifier": [ {
        "system": "urn:oid:2.16.840.1.113883.2.9.4.3.2",
        "value": "SVATPR85Y37T079B",
        "assigner": {
          "display": "MEF"
        }
      } ],
      "name": [ {
        "family": "Turri",
        "given": [ "Silvia" ]
      }, {
        "text": "###PRIOR###RESPONSIBLEPARTY_ASSIGNEDENTITY_ASSIGNEDPERSON###PRIOR###"
      } ]
    },
    "request": {
      "method": "PUT",
      "url": "Practitioner?identifier=urn:oid:2.16.840.1.113883.2.9.4.3.2|SVATPR85Y37T079B"
    }
  }, {
    "fullUrl": "https://example.com/base/Organization/2.16.840.1.113883.2.9.4.1.3-327700102",
    "resource": {
      "resourceType": "Organization",
      "id": "2.16.840.1.113883.2.9.4.1.3-327700102",
      "identifier": [ {
        "system": "urn:oid:2.16.840.1.113883.2.9.4.1.3",
        "value": "327700102",
        "assigner": {
          "display": "Ministero della Salute"
        }
      } ],
      "name": "Nuovo Ospedale S.Agostino (MO)",
      "partOf": {
        "reference": "Organization/2.16.840.1.113883.2.9.4.1.1-080105"
      }
    },
    "request": {
      "method": "PUT",
      "url": "Organization?identifier=urn:oid:2.16.840.1.113883.2.9.4.1.3|327700102"
    }
  }, {
    "fullUrl": "https://example.com/base/Observation/has-member-observation1-1",
    "resource": {
      "resourceType": "Observation",
      "id": "has-member-observation1-1",
      "status": "final",
      "code": {
        "coding": [ {
          "system": "urn:oid:2.16.840.1.113883.6.1",
          "version": "LOINC",
          "code": "xxx",
          "display": "xxx"
        } ]
      },
      "subject": {
        "reference": "Patient/2.16.840.1.113883.2.9.4.3.2-RSSMRA81T20H501L"
      },
      "effectiveDateTime": "2022-03-22T22:12:21+01:00",
      "interpretation": [ {
        "coding": [ {
          "system": "urn:oid:2.16.840.1.113883.5.83",
          "version": "sistema di codifica",
          "code": "xxx",
          "display": "xxxx"
        } ]
      } ],
      "specimen": {
        "reference": "Specimen/specimen-entry-organizer1"
      },
      "derivedFrom": [ {
        "reference": "Media/organizer-observation-media1-1"
      } ]
    },
    "request": {
      "method": "POST",
      "url": "Observation"
    }
  }, {
    "fullUrl": "https://example.com/base/ServiceRequest/service-request1",
    "resource": {
      "resourceType": "ServiceRequest",
      "id": "service-request1",
      "identifier": [ {
        "system": "urn:oid:2.16.840.1.113883.2.9.4.3.9",
        "value": "[NRE]",
        "assigner": {
          "display": "MEF"
        }
      } ],
      "status": "active",
      "intent": "order",
      "priority": "routine",
      "subject": {
        "reference": "Patient/2.16.840.1.113883.2.9.4.3.2-RSSMRA81T20H501L"
      },
      "encounter": {
        "reference": "Encounter/encounter"
      }
    },
    "request": {
      "method": "POST",
      "url": "ServiceRequest"
    }
  }, {
    "fullUrl": "https://example.com/base/Organization/2.16.840.1.113883.2.9.4.1.1-080105",
    "resource": {
      "resourceType": "Organization",
      "id": "2.16.840.1.113883.2.9.4.1.1-080105",
      "identifier": [ {
        "system": "urn:oid:2.16.840.1.113883.2.9.4.1.1",
        "value": "080105",
        "assigner": {
          "display": "Ministero della Salute"
        }
      } ]
    },
    "request": {
      "method": "PUT",
      "url": "Organization?identifier=urn:oid:2.16.840.1.113883.2.9.4.1.1|080105"
    }
  }, {
    "fullUrl": "https://example.com/base/PractitionerRole/practitioner-role-responsible-party",
    "resource": {
      "resourceType": "PractitionerRole",
      "id": "practitioner-role-responsible-party",
      "practitioner": {
        "reference": "Practitioner/2.16.840.1.113883.2.9.4.3.2-SVATPR85Y37T079B"
      }
    },
    "request": {
      "method": "POST",
      "url": "PractitionerRole"
    }
  }, {
    "fullUrl": "https://example.com/base/Practitioner/2.16.840.1.113883.2.9.4.3.2-SPSDRD72A01H501P",
    "resource": {
      "resourceType": "Practitioner",
      "id": "2.16.840.1.113883.2.9.4.3.2-SPSDRD72A01H501P",
      "identifier": [ {
        "system": "urn:oid:2.16.840.1.113883.2.9.4.3.2",
        "value": "SPSDRD72A01H501P",
        "assigner": {
          "display": "MEF"
        }
      } ],
      "name": [ {
        "family": "Esposito",
        "given": [ "Edoardo" ]
      }, {
        "text": "###PRIOR###ASSIGNEDENTITY_ASSIGNEDPERSON###PRIOR###"
      } ]
    },
    "request": {
      "method": "PUT",
      "url": "Practitioner?identifier=urn:oid:2.16.840.1.113883.2.9.4.3.2|SPSDRD72A01H501P"
    }
  }, {
    "fullUrl": "https://example.com/base/PractitioneRole/practitioner-role-encounter1",
    "resource": {
      "resourceType": "PractitionerRole",
      "id": "practitioner-role-encounter1",
      "identifier": [ {
        "system": "urn:2.16.840.1.113883.2.9.4.3.2-2.16.840.1.113883.2.9.4.1.2",
        "value": "MGGSLV77F45N079MF120148"
      } ],
      "practitioner": {
        "reference": "Practitioner/2.16.840.1.113883.2.9.4.3.2-MGGSLV77F45N079MF"
      },
      "organization": {
        "reference": "Organization/2.16.840.1.113883.2.9.4.1.2-120148"
      },
      "code": [ {
        "coding": [ {
          "system": "urn:oid:2.16.840.1.113883.2.9.5.1.88",
          "code": "PRE",
          "display": "Prenotatore"
        } ]
      } ]
    },
    "request": {
      "method": "PUT",
      "url": "PractitionerRole?identifier=urn:2.16.840.1.113883.2.9.4.3.2-2.16.840.1.113883.2.9.4.1.2|MGGSLV77F45N079MF120148"
    }
  }, {
    "fullUrl": "https://example.com/base/PractitionerRole/practitioner-role-authenticator",
    "resource": {
      "resourceType": "PractitionerRole",
      "id": "practitioner-role-authenticator",
      "practitioner": {
        "reference": "Practitioner/2.16.840.1.113883.2.9.4.3.2-RSSRBR67H99H467D"
      }
    },
    "request": {
      "method": "POST",
      "url": "PractitionerRole"
    }
  }, {
    "fullUrl": "https://example.com/base/Organization/2.16.840.1.113883.2.9.4.1.1-XXX1",
    "resource": {
      "resourceType": "Organization",
      "id": "2.16.840.1.113883.2.9.4.1.1-XXX1",
      "identifier": [ {
        "system": "urn:oid:2.16.840.1.113883.2.9.4.1.1",
        "value": "XXX1",
        "assigner": {
          "display": "Ministero della Salute"
        }
      } ]
    },
    "request": {
      "method": "PUT",
      "url": "Organization?identifier=urn:oid:2.16.840.1.113883.2.9.4.1.1|XXX1"
    }
  }, {
    "fullUrl": "https://example.com/base/Practitioner/2.16.840.1.113883.2.9.4.3.2-MGGSLV77F45N079MF",
    "resource": {
      "resourceType": "Practitioner",
      "id": "2.16.840.1.113883.2.9.4.3.2-MGGSLV77F45N079MF",
      "identifier": [ {
        "system": "urn:oid:2.16.840.1.113883.2.9.4.3.2",
        "value": "MGGSLV77F45N079MF",
        "assigner": {
          "display": "MEF"
        }
      } ],
      "name": [ {
        "family": "Maggi",
        "given": [ "Silvia" ]
      }, {
        "text": "###PRIOR###PARTICIPANT_ASSOCIATEDENTITY###PRIOR###"
      } ],
      "telecom": [ {
        "system": "email",
        "value": "maggi.silvia@gmail.com",
        "use": "home"
      } ],
      "address": [ {
        "line": [ "Via Vittorio Veneto 3" ],
        "city": "Roma",
        "district": "RM",
        "state": "120",
        "postalCode": "00187",
        "country": "100"
      } ]
    },
    "request": {
      "method": "PUT",
      "url": "Practitioner?identifier=urn:oid:2.16.840.1.113883.2.9.4.3.2|MGGSLV77F45N079MF"
    }
  }, {
    "fullUrl": "https://example.com/base/Media/organizer-observation-media1-1",
    "resource": {
      "resourceType": "Media",
      "id": "organizer-observation-media1-1",
      "status": "unknown",
      "subject": {
        "reference": "Patient/2.16.840.1.113883.2.9.4.3.2-RSSMRA81T20H501L"
      },
      "encounter": {
        "reference": "Encounter/encounter"
      },
      "content": {
        "contentType": "application/pdf",
        "data": "FileB64="
      }
    },
    "request": {
      "method": "POST",
      "url": "Media"
    }
  }, {
    "fullUrl": "https://example.com/base/Location/location-encompassing-encounter",
    "resource": {
      "resourceType": "Location",
      "id": "location-encompassing-encounter",
      "identifier": [ {
        "system": "urn:oid:2.16.840.1.113883.2.9.4.1.6",
        "value": "XXX",
        "assigner": {
          "display": "Ministero della Salute"
        }
      } ],
      "managingOrganization": {
        "reference": "Organization/2.16.840.1.113883.2.9.4.1.2-XXX"
      },
      "partOf": {
        "reference": "Location/facility-location"
      }
    },
    "request": {
      "method": "POST",
      "url": "Location"
    }
  }, {
    "fullUrl": "https://example.com/base/Media/organizer-observation-media2-1",
    "resource": {
      "resourceType": "Media",
      "id": "organizer-observation-media2-1",
      "status": "unknown",
      "subject": {
        "reference": "Patient/2.16.840.1.113883.2.9.4.3.2-RSSMRA81T20H501L"
      },
      "encounter": {
        "reference": "Encounter/encounter"
      },
      "content": {
        "contentType": "application/pdf",
        "data": "FileB64="
      }
    },
    "request": {
      "method": "POST",
      "url": "Media"
    }
  }, {
    "fullUrl": "https://example.com/base/Patient/2.16.840.1.113883.2.9.4.3.2-RSSMRA81T20H501L",
    "resource": {
      "resourceType": "Patient",
      "id": "2.16.840.1.113883.2.9.4.3.2-RSSMRA81T20H501L",
      "text": {
        "status": "generated",
        "div": "<div xmlns=\"http://www.w3.org/1999/xhtml\"><div class=\"hapiHeaderText\">Mario <b>ROSSI </b></div><table class=\"hapiPropertyTable\"><tbody><tr><td>Identifier</td><td>RSSMRA81T20H501L</td></tr><tr><td>Address</td><td><span>Via Aurora 12 </span><br/><span>Roma </span><span>120 </span><span>100 </span></td></tr><tr><td>Date of birth</td><td><span>20 dicembre 1981</span></td></tr></tbody></table></div>"
      },
      "extension": [ {
        "url": "http://hl7.org/fhir/StructureDefinition/patient-birthPlace",
        "valueAddress": {
          "use": "home",
          "city": "Roma",
          "country": "100"
        }
      } ],
      "identifier": [ {
        "system": "urn:oid:2.16.840.1.113883.2.9.4.3.2",
        "value": "RSSMRA81T20H501L",
        "assigner": {
          "display": "MEF"
        }
      } ],
      "name": [ {
        "family": "Rossi",
        "given": [ "Mario" ]
      } ],
      "telecom": [ {
        "system": "email",
        "value": "mario.rossi@gmail.com",
        "use": "home"
      }, {
        "system": "phone",
        "value": "+39333224456",
        "use": "mobile"
      } ],
      "gender": "male",
      "birthDate": "1981-12-20",
      "address": [ {
        "use": "home",
        "line": [ "Via Aurora 12" ],
        "city": "Roma",
        "district": "RM",
        "state": "120",
        "postalCode": "00187",
        "country": "100"
      }, {
        "use": "home",
        "line": [ "Via Canevari 12B" ],
        "city": "Roma",
        "district": "RM",
        "state": "120",
        "postalCode": "00138",
        "country": "100"
      } ]
    },
    "request": {
      "method": "PUT",
      "url": "Patient?identifier=urn:oid:2.16.840.1.113883.2.9.4.3.2|RSSMRA81T20H501L"
    }
  }, {
    "fullUrl": "https://example.com/base/PractitionerRole/practitioner-role-legal-aut",
    "resource": {
      "resourceType": "PractitionerRole",
      "id": "practitioner-role-legal-aut",
      "practitioner": {
        "reference": "Practitioner/2.16.840.1.113883.2.9.4.3.2-BNCFNC68R09F839P"
      }
    },
    "request": {
      "method": "POST",
      "url": "PractitionerRole"
    }
  }, {
    "fullUrl": "https://example.com/base/Organization/2.16.840.1.113883.2.9.4.1.2-120148",
    "resource": {
      "resourceType": "Organization",
      "id": "2.16.840.1.113883.2.9.4.1.2-120148",
      "identifier": [ {
        "system": "urn:oid:2.16.840.1.113883.2.9.4.1.2",
        "value": "120148",
        "assigner": {
          "display": "Ministero della Salute"
        }
      } ],
      "telecom": [ {
        "system": "phone",
        "value": " 010337288945",
        "use": "work"
      } ],
      "address": [ {
        "line": [ "Via Emilio Praga 39" ],
        "city": "Roma",
        "district": "RM",
        "state": "120",
        "postalCode": "00137",
        "country": "100"
      } ]
    },
    "request": {
      "method": "PUT",
      "url": "Organization?identifier=urn:oid:2.16.840.1.113883.2.9.4.1.2|120148"
    }
  }, {
    "fullUrl": "https://example.com/base/Organization/2.16.840.1.113883.2.9.4.1.2-XXX",
    "resource": {
      "resourceType": "Organization",
      "id": "2.16.840.1.113883.2.9.4.1.2-XXX",
      "identifier": [ {
        "system": "urn:oid:2.16.840.1.113883.2.9.4.1.2",
        "value": "XXX",
        "assigner": {
          "display": "Ministero della Salute"
        }
      } ],
      "name": "[nome_presidio]",
      "telecom": [ {
        "system": "phone",
        "value": "0115678965",
        "use": "work"
      } ],
      "partOf": {
        "reference": "Organization/2.16.840.1.113883.2.9.4.1.1-XXX1"
      }
    },
    "request": {
      "method": "PUT",
      "url": "Organization?identifier=urn:oid:2.16.840.1.113883.2.9.4.1.2|XXX"
    }
  }, {
    "fullUrl": "https://example.com/base/Practitioner/2.16.840.1.113883.2.9.4.3.2-MURRSI88Y67R012G",
    "resource": {
      "resourceType": "Practitioner",
      "id": "2.16.840.1.113883.2.9.4.3.2-MURRSI88Y67R012G",
      "identifier": [ {
        "system": "urn:oid:2.16.840.1.113883.2.9.4.3.2",
        "value": "MURRSI88Y67R012G",
        "assigner": {
          "display": "MEF"
        }
      } ],
      "name": [ {
        "family": "Rossi",
        "given": [ "Maura" ]
      }, {
        "text": "###PRIOR###INTENDEDRECIPIENT_INFORMATIONRECIPIENT###PRIOR###"
      } ],
      "telecom": [ {
        "system": "phone",
        "value": "062866794",
        "use": "work"
      } ]
    },
    "request": {
      "method": "PUT",
      "url": "Practitioner?identifier=urn:oid:2.16.840.1.113883.2.9.4.3.2|MURRSI88Y67R012G"
    }
  }, {
    "fullUrl": "https://example.com/base/Encounter/encounter",
    "resource": {
      "resourceType": "Encounter",
      "id": "encounter",
      "status": "unknown",
      "class": {
        "system": "http://terminology.hl7.org/CodeSystem/v3-ActCode",
        "code": "IMP",
        "display": "inpatient encounter"
      },
      "subject": {
        "reference": "Patient/2.16.840.1.113883.2.9.4.3.2-RSSMRA81T20H501L"
      },
      "basedOn": [ {
        "reference": "ServiceRequest/service-request1"
      } ],
      "participant": [ {
        "type": [ {
          "coding": [ {
            "system": "http://terminology.hl7.org/CodeSystem/v3-ParticipationType",
            "code": "REF"
          } ]
        } ],
        "period": {
          "start": "2022-03-21T12:24:37+01:00"
        },
        "individual": {
          "reference": "PractitionerRole/practitioner-role-encounter1"
        }
      }, {
        "type": [ {
          "coding": [ {
            "system": "http://terminology.hl7.org/CodeSystem/v3-ParticipationType",
            "code": "AUTHEN"
          } ]
        } ],
        "individual": {
          "reference": "PractitionerRole/practitioner-role-performer"
        }
      }, {
        "type": [ {
          "coding": [ {
            "system": "http://terminology.hl7.org/CodeSystem/v3-ParticipationType",
            "code": "AUTHEN"
          } ]
        } ],
        "individual": {
          "reference": "PractitionerRole/practitioner-role-performer"
        }
      }, {
        "individual": {
          "reference": "PractitionerRole/practitioner-role-responsible-party"
        }
      } ],
      "period": {
        "start": "2022-03-21T11:24:26+01:00"
      },
      "location": [ {
        "location": {
          "reference": "Location/location-encompassing-encounter"
        }
      } ]
    },
    "request": {
      "method": "POST",
      "url": "Encounter"
    }
  }, {
    "fullUrl": "https://example.com/base/Composition/composition",
    "resource": {
      "resourceType": "Composition",
      "id": "composition",
      "language": "it-IT",
      "extension": [ {
        "url": "http://hl7.org/fhir/StructureDefinition/composition-clinicaldocument-versionNumber",
        "valueString": "1"
      } ],
      "identifier": {
        "system": "urn:oid:2.16.840.1.113883.2.9.2.120.4.4",
        "value": "c030702.TSTSMN63A01F205H.20220325112426.TSS1Tkju",
        "assigner": {
          "display": "Regione Lazio"
        }
      },
      "status": "final",
      "type": {
        "coding": [ {
          "system": "urn:oid:2.16.840.1.113883.6.1",
          "version": "LOINC",
          "code": "11502-2",
          "display": "Referto di laboratorio"
        } ]
      },
      "subject": {
        "reference": "Patient/2.16.840.1.113883.2.9.4.3.2-RSSMRA81T20H501L"
      },
      "encounter": {
        "reference": "Encounter/encounter"
      },
      "date": "2022-03-22T22:12:21+01:00",
      "author": [ {
        "reference": "Practitioner/2.16.840.1.113883.2.9.4.3.2-BNCFNC68R09F839P"
      }, {
        "reference": "Practitioner/2.16.840.1.113883.2.9.4.3.2-SPSDRD72A01H501P"
      } ],
      "title": " REFERTO DI LABORATORIO",
      "confidentiality": "N",
      "attester": [ {
        "mode": "professional",
        "party": {
          "reference": "Practitioner/2.16.840.1.113883.2.9.4.3.2-MURRSI88Y67R012G"
        }
      }, {
        "mode": "legal",
        "time": "2022-03-25T11:00:00+01:00",
        "party": {
          "reference": "PractitionerRole/practitioner-role-legal-aut"
        }
      }, {
        "mode": "professional",
        "time": "2022-03-22T22:12:21+01:00",
        "party": {
          "reference": "PractitionerRole/practitioner-role-authenticator"
        }
      } ],
      "custodian": {
        "reference": "Organization/2.16.840.1.113883.2.9.4.1.2-120148"
      },
      "event": [ {
        "period": {
          "start": "2022-03-22T22:12:21+01:00"
        },
        "detail": [ {
          "reference": "PractitionerRole/practitioner-role-performer"
        } ]
      } ],
      "section": [ {
        "code": {
          "coding": [ {
            "system": "urn:oid:2.16.840.1.113883.6.1",
            "version": "LOINC",
            "code": "18717-9",
            "display": "xxx"
          } ]
        },
        "section": [ {
          "title": "XXXX",
          "code": {
            "coding": [ {
              "system": "urn:oid:2.16.840.1.113883.6.1",
              "code": "18717-9",
              "display": "xxx"
            } ]
          },
          "entry": [ {
            "reference": "DiagnosticReport/diagnostic-report"
          } ]
        }, {
          "title": "XXXX",
          "code": {
            "coding": [ {
              "system": "urn:oid:2.16.840.1.113883.6.1",
              "code": "18717-9",
              "display": "xxx"
            } ]
          },
          "entry": [ {
            "reference": "DiagnosticReport/diagnostic-report"
          } ]
        } ]
      } ]
    },
    "request": {
      "method": "POST",
      "url": "Composition"
    }
  }, {
    "fullUrl": "https://example.com/base/Observation/observation-entry2",
    "resource": {
      "resourceType": "Observation",
      "id": "observation-entry2",
      "status": "final",
      "code": {
        "coding": [ {
          "system": "urn:oid:"
        } ]
      },
      "effectiveDateTime": "2022-03-22T22:12:21+01:00",
      "specimen": {
        "reference": "Specimen/specimen-entry-organizer2"
      },
      "hasMember": [ {
        "reference": "Observation/has-member-observation2-1"
      }, {
        "reference": "Observation/has-member-observation2-2"
      } ]
    },
    "request": {
      "method": "POST",
      "url": "Observation"
    }
  }, {
    "fullUrl": "https://example.com/base/Location/facility-location",
    "resource": {
      "resourceType": "Location",
      "id": "facility-location"
    },
    "request": {
      "method": "POST",
      "url": "Location"
    }
  }, {
    "fullUrl": "https://example.com/base/Observation/observation-entry1",
    "resource": {
      "resourceType": "Observation",
      "id": "observation-entry1",
      "status": "final",
      "code": {
        "coding": [ {
          "system": "urn:oid:"
        } ]
      },
      "effectiveDateTime": "2022-03-22T22:12:21",
      "specimen": {
        "reference": "Specimen/specimen-entry-organizer1"
      },
      "hasMember": [ {
        "reference": "Observation/has-member-observation1-1"
      }, {
        "reference": "Observation/has-member-observation1-2"
      } ]
    },
    "request": {
      "method": "POST",
      "url": "Observation"
    }
  }, {
    "fullUrl": "https://example.com/base/DocumentReference/document-reference",
    "resource": {
      "resourceType": "DocumentReference",
      "id": "document-reference",
      "masterIdentifier": {
      	"system": "MASTER_ID_SYSTEM_1",
        "value": "MASTER_ID_VAL_1"
      },
      "identifier": [ {
        "id": "Document00"
      } ],
      "status": "current",
      "type": {
        "coding": [ {
          "system": "urn:oid:2.16.840.1.113883.6.1",
          "code": "11502-2"
        } ]
      },
      "category": [ {
        "coding": [ {
          "system": "http://terminology.hl7.org/CodeSystem/media-category",
          "code": "tipoDocumentoLivAlto"
        } ]
      } ],
      "subject": {
        "reference": "Patient/2.16.840.1.113883.2.9.4.3.2-RSSMRA81T20H501L"
      },
      "date": "2022-11-09T15:42:07.227+01:00",
      "author": [ {
        "reference": "Practitioner/2.16.840.1.113883.2.9.4.3.2-BNCFNC68R09F839P"
      } ],
      "custodian": {
        "reference": "Organization/2.16.840.1.113883.2.9.4.1.2-120148"
      },
      "securityLabel": [ {
        "coding": [ {
          "system": "http://terminology.hl7.org/CodeSystem/v3-Confidentiality",
          "code": "N"
        } ]
      } ],
      "content": [ {
        "attachment": {
          "contentType": "application/pdf",
          "language": "it-IT",
          "url": "repositoryUniqueID",
          "size": 1000,
          "hash": "YjdiNjEyOTgtMWEzNC00NzQwLWJlYjUtNDVjMTk1ZjcxY2Rk"
        },
        "format": {
          "system": "urn:oid:2.16.840.1.113883.2.9.10.1.1",
          "code": "1.3"
        }
      } ],
      "context": {
        "facilityType": {
          "coding": [ {
            "system": "urn:oid",
            "code": "facilityTypeCode"
          } ]
        },
        "practiceSetting": {
          "coding": [ {
            "system": "urn:oid",
            "code": "practiceSettingCode"
          } ]
        },
        "sourcePatientInfo": {
          "reference": "Patient/2.16.840.1.113883.2.9.4.3.2-RSSMRA81T20H501L"
        },
        "related": [ {
          "reference": "Composition/composition"
        } ]
      }
    },
    "request": {
      "method": "POST",
      "url": "DocumentReference"
    }
  }, {
    "fullUrl": "https://example.com/base/Specimen/specimen-entry-organizer1",
    "resource": {
      "resourceType": "Specimen",
      "id": "specimen-entry-organizer1",
      "type": {
        "coding": [ {
          "system": "urn:oid:1.1.1.1.1.1.1.1.1.1",
          "code": "xxxxxx",
          "display": "xxx"
        } ]
      },
      "subject": {
        "reference": "Patient/2.16.840.1.113883.2.9.4.3.2-RSSMRA81T20H501L"
      }
    },
    "request": {
      "method": "POST",
      "url": "Specimen"
    }
  }, {
    "fullUrl": "https://example.com/base/Specimen/specimen-entry-organizer2",
    "resource": {
      "resourceType": "Specimen",
      "id": "specimen-entry-organizer2",
      "type": {
        "coding": [ {
          "system": "urn:oid:1.1.1.1.1.1.1.1",
          "code": "xxxxxx",
          "display": "xxx"
        } ]
      },
      "subject": {
        "reference": "Patient/2.16.840.1.113883.2.9.4.3.2-RSSMRA81T20H501L"
      }
    },
    "request": {
      "method": "POST",
      "url": "Specimen"
    }
  } ]
}